Folder: VizBATT/VizBAT

Note: VizBAT/README.md
# VizBATT

**VizBATT** is a visualization tool designed to explore and analyze battery materials, specifically focusing on Wadsley-Roth materials. This tool leverages five-dimensional visualization to uncover structure-performance qualitative trends, making it an invaluable resource for materials science and engineering research in energy storage.

## Features

- **Five-Dimensional Visualization**: Explore complex data sets with advanced visualization techniques.
- **Focus on Wadsley-Roth Materials**: Specialized tools for analyzing this specific class of battery materials.
- **Interactive Dashboards**: Built with Plotly Dash for interactive and dynamic data exploration.
- **Integration with Common Data Formats**: Easily import and visualize data from CSV and other common formats.

## Installation

To install the necessary dependencies, run:

```bash
pip install -r requirements.txt

File: battery_structure_performance.csv
Unnamed: 0,avg_bond_length,std_bond_length,skew_bond_length,distortion_index,quadratic_elongation,n_corner_pairs,n_edge_pairs,n_face_pairs,n_atoms_in_cell,avg_bond_angles,std_bond_length_angles,skew_bond_length_angles,volumes,bond_angle_variance,central_atoms,polyhedra_formula,poly_types,n_atoms_per_cell,Formula,cif_name,Structure type,Mol wt (g/mol),Central Atom(s),Total Number of TM,Capacity (mAh/g),1st Discharge (mAh/g),1st Charge (mAh/g),1st Charge/1st Discharge Ratio,2nd Discharge (mAh/g),2nd/1st Discharge Ratio,x moles of Li+,Li/TM ,Rate of cycling (nC),m (width),n (height),Repeat (e.g. ? or 1 ),Starting Voltage (V),Ending Voltage (V),Cycling Shape,Paper with reported capacity,Notes,Structure,Area,Perimeter
1,1.9027,0.01697078,0.707107,0.008409212,1.20614,0.125,0.03125,0,64,89.9585,2.18142,0.056972,9.0069,5.19308,W,O6,Octahedron,64,WO3,(Nb0.118 W0.882)O2.941,,,,,,,,,,,,,,,,,,,,,,Wadsley-Roth,0,0
2,1.9027,0.01697078,0.707107,0.008409212,1.20614,0.125,0.03125,0,64,89.9585,2.18142,0.056972,9.0069,5.19308,W,O6,Octahedron,64,WO3,(Nb0.118 W0.882)O2.941,,,,,,,,,,,,,,,,,,,,,,Wadsley-Roth,0,0
3,1.9027,0.01697078,0.707107,0.008409212,1.20614,0.6875,0.171875,0,64,89.9585,2.18142,0.056972,9.0069,5.19308,W,O6,Octahedron,64,WO3,(Nb0.118 W0.882)O2.941,,,,,,,,,,,,,,,,,,,,,,Wadsley-Roth,0,0
4,1.9027,0.01697078,0.707107,0.008409212,1.20614,0.0625,0.015625,0,64,89.9585,2.18142,0.056972,9.0069,5.19308,W,O6,Octahedron,64,WO3,(Nb0.118 W0.882)O2.941,,,,,,,,,,,,,,,,,,,,,,Wadsley-Roth,0,0
5,1.86529,0.112268,-1.76826,0.0447474,1.22207,0.111111,0.0444444,0,180,90.2512,5.65833,-0.1325,8.3206,34.9962,V,O6,Octahedron,180,V3O7,(W0.2V0.8)3O7,WR,344.56,"W,V",1,180,286.96,267.39,0.931802,263.81,0.919327,2.67105,2.67105,5,4,4,1,1,3,Symmetric,10.1021/acs.chemmater.0c03496?ref=pdf,Capacity approximated from Fig 5c in paper,Wadsley-Roth,16,8
6,1.86529,0.112268,-1.76826,0.0447474,1.22207,0.0277778,0.0111111,0,180,90.2512,5.65833,-0.1325,8.3206,34.9962,V,O6,Octahedron,180,V3O7,(W0.2V0.8)3O7,WR,344.56,"W,V",1,180,286.96,267.39,0.931802,263.81,0.919327,2.67105,2.67105,5,4,4,1,1,3,Symmetric,10.1021/acs.chemmater.0c03496?ref=pdf,Capacity approximated from Fig 5c in paper,Wadsley-Roth,16,8
7,1.86529,0.112268,-1.76826,0.0447474,1.22207,0.166667,0.0666667,0,180,90.2512,5.65833,-0.1325,8.3206,34.9962,V,O6,Octahedron,180,V3O7,(W0.2V0.8)3O7,WR,344.56,"W,V",1,180,286.96,267.39,0.931802,263.81,0.919327,2.67105,2.67105,5,4,4,1,1,3,Symmetric,10.1021/acs.chemmater.0c03496?ref=pdf,Capacity approximated from Fig 5c in paper,Wadsley-Roth,16,8
8,1.86529,0.112268,-1.76826,0.0447474,1.22207,0.194444,0.0777778,0,180,90.2512,5.65833,-0.1325,8.3206,34.9962,V,O6,Octahedron,180,V3O7,(W0.2V0.8)3O7,WR,344.56,"W,V",1,180,286.96,267.39,0.931802,263.81,0.919327,2.67105,2.67105,5,4,4,1,1,3,Symmetric,10.1021/acs.chemmater.0c03496?ref=pdf,Capacity approximated from Fig 5c in paper,Wadsley-Roth,16,8
9,1.86529,0.112268,-1.76826,0.0447474,1.22207,0.0833333,0.0333333,0,180,90.2512,5.65833,-0.1325,8.3206,34.9962,V,O6,Octahedron,180,V3O7,(W0.2V0.8)3O7,WR,344.56,"W,V",1,180,286.96,267.39,0.931802,263.81,0.919327,2.67105,2.67105,5,4,4,1,1,3,Symmetric,10.1021/acs.chemmater.0c03496?ref=pdf,Capacity approximated from Fig 5c in paper,Wadsley-Roth,16,8
10,1.86529,0.112268,-1.76826,0.0447474,1.22207,0.0833333,0.0333333,0,180,90.2512,5.65833,-0.1325,8.3206,34.9962,V,O6,Octahedron,180,V3O7,(W0.2V0.8)3O7,WR,344.56,"W,V",1,180,286.96,267.39,0.931802,263.81,0.919327,2.67105,2.67105,5,4,4,1,1,3,Symmetric,10.1021/acs.chemmater.0c03496?ref=pdf,Capacity approximated from Fig 5c in paper,Wadsley-Roth,16,8
11,1.98606,0.230014,0.186231,0.0990328,1.25814,0.111111,0.138889,0,180,90.0184,4.8205,-0.0459914,9.61489,25.35,V,O6,Octahedron,180,V3O7,(W0.2V0.8)3O7,WR,344.56,"W,V",1,180,286.96,267.39,0.931802,263.81,0.919327,2.67105,2.67105,5,4,4,1,1,3,Symmetric,10.1021/acs.chemmater.0c03496?ref=pdf,Capacity approximated from Fig 5c in paper,Wadsley-Roth,16,8
12,1.98606,0.230014,0.186231,0.0990328,1.25814,0.222222,0.277778,0,180,90.0184,4.8205,-0.0459914,9.61489,25.35,V,O6,Octahedron,180,V3O7,(W0.2V0.8)3O7,WR,344.56,"W,V",1,180,286.96,267.39,0.931802,263.81,0.919327,2.67105,2.67105,5,4,4,1,1,3,Symmetric,10.1021/acs.chemmater.0c03496?ref=pdf,Capacity approximated from Fig 5c in paper,Wadsley-Roth,16,8
13,1.98606,0.230014,0.186231,0.0990328,1.25814,0.155556,0.194444,0,180,90.0184,4.8205,-0.0459914,9.61489,25.35,V,O6,Octahedron,180,V3O7,(W0.2V0.8)3O7,WR,344.56,"W,V",1,180,286.96,267.39,0.931802,263.81,0.919327,2.67105,2.67105,5,4,4,1,1,3,Symmetric,10.1021/acs.chemmater.0c03496?ref=pdf,Capacity approximated from Fig 5c in paper,Wadsley-Roth,16,8
14,1.98606,0.230014,0.186231,0.0990328,1.25814,0.0444444,0.0555556,0,180,90.0184,4.8205,-0.0459914,9.61489,25.35,V,O6,Octahedron,180,V3O7,(W0.2V0.8)3O7,WR,344.56,"W,V",1,180,286.96,267.39,0.931802,263.81,0.919327,2.67105,2.67105,5,4,4,1,1,3,Symmetric,10.1021/acs.chemmater.0c03496?ref=pdf,Capacity approximated from Fig 5c in paper,Wadsley-Roth,16,8
15,2.03923,0.128455,-0.707107,0.0593892,1.19544,0.1,0,0,180,90,5.15047e-14,,11.2375,2.93743e-27,V,O6,Octahedron,180,V3O7,(W0.2V0.8)3O7,WR,344.56,"W,V",1,180,286.96,267.39,0.931802,263.81,0.919327,2.67105,2.67105,5,4,4,1,1,3,Symmetric,10.1021/acs.chemmater.0c03496?ref=pdf,Capacity approximated from Fig 5c in paper,Wadsley-Roth,16,8
16,2.03923,0.128455,-0.707107,0.0593892,1.19544,0.1,0,0,180,90,2.24821e-14,,11.2375,5.93606e-28,V,O6,Octahedron,180,V3O7,(W0.2V0.8)3O7,WR,344.56,"W,V",1,180,286.96,267.39,0.931802,263.81,0.919327,2.67105,2.67105,5,4,4,1,1,3,Symmetric,10.1021/acs.chemmater.0c03496?ref=pdf,Capacity approximated from Fig 5c in paper,Wadsley-Roth,16,8
17,1.93611,0.174464,-0.0456094,0.0706241,1.21599,0.0344828,0.0344828,0,348,90.1294,4.48028,0.189926,9.37472,21.916,Nb,O6,Octahedron,348,Nb25O62,Al0.5Nb24.5O62,,,,,,,,,,,,,,,,,,,,,,Wadsley-Roth,0,0
19,1.95243,0.134109,-1.66115,0.05036644,1.23394,0.0287356,0.005747126,0,348,90.2297,6.0639,0.183963,9.40473,40.1713,Nb,O6,Octahedron,348,Nb25O62,Al0.5Nb24.5O62,,,,,,,,,,,,,,,,,,,,,,Wadsley-Roth,0,0
21,1.95243,0.134109,-1.66115,0.05036644,1.23394,0.0431034,0.00862069,0,348,90.2297,6.0639,0.183963,9.40473,40.1713,Nb,O6,Octahedron,348,Nb25O62,Al0.5Nb24.5O62,,,,,,,,,,,,,,,,,,,,,,Wadsley-Roth,0,0
23,1.96474,0.174683,0.225275,0.0843201,1.26574,0.0172414,0.0172414,0,348,95.1917,18.4941,1.68912,9.22481,399.735,Nb,O6,Octahedron,348,Nb25O62,Al0.5Nb24.5O62,,,,,,,,,,,,,,,,,,,,,,Wadsley-Roth,0,0
25,1.96474,0.174683,0.225275,0.0843201,1.26574,0.00862069,0.00862069,0,348,95.1917,18.4941,1.68912,9.22481,399.735,Nb,O6,Octahedron,348,Nb25O62,Al0.5Nb24.5O62,,,,,,,,,,,,,,,,,,,,,,Wadsley-Roth,0,0
27,1.96474,0.174683,0.225275,0.0843201,1.26574,0.00862069,0.00862069,0,348,95.1917,18.4941,1.68912,9.22481,399.735,Nb,O6,Octahedron,348,Nb25O62,Al0.5Nb24.5O62,,,,,,,,,,,,,,,,,,,,,,Wadsley-Roth,0,0
29,1.97159,0.289319,-0.493527,0.0968605,1.25477,0.0172414,0.0172414,0,348,90.4145,7.69007,-0.62678,9.44421,64.7007,Nb,O6,Octahedron,348,Nb25O62,Al0.5Nb24.5O62,,,,,,,,,,,,,,,,,,,,,,Wadsley-Roth,0,0
31,1.97159,0.289319,-0.493527,0.0968605,1.25477,0.00862069,0.00862069,0,348,90.4145,7.69007,-0.62678,9.44421,64.7007,Nb,O6,Octahedron,348,Nb25O62,Al0.5Nb24.5O62,,,,,,,,,,,,,,,,,,,,,,Wadsley-Roth,0,0
33,1.99062,0.265399,-0.728136,0.100433,1.31292,0.0114943,0.00862069,0,348,90.1479,7.26519,-0.592664,9.0817,57.6054,Nb,O6,Octahedron,348,Nb25O62,Al0.5Nb24.5O62,,,,,,,,,,,,,,,,,,,,,,Wadsley-Roth,0,0
35,1.99062,0.265399,-0.728136,0.100433,1.31292,0.0229885,0.0172414,0,348,90.1479,7.26519,-0.592664,9.0817,57.6054,Nb,O6,Octahedron,348,Nb25O62,Al0.5Nb24.5O62,,,,,,,,,,,,,,,,,,,,,,Wadsley-Roth,0,0
37,2.03498,0.120865,0.209619,0.0475209,1.2683,0.00862069,0.0114943,0,348,95.4428,19.2761,2.15131,10.2189,434.626,Nb,O6,Octahedron,348,Nb25O62,Al0.5Nb24.5O62,,,,,,,,,,,,,,,,,,,,,,Wadsley-Roth,0,0
39,2.03498,0.120865,0.209619,0.0475209,1.2683,0.0258621,0.0344828,0,348,95.4428,19.2761,2.15131,10.2189,434.626,Nb,O6,Octahedron,348,Nb25O62,Al0.5Nb24.5O62,,,,,,,,,,,,,,,,,,,,,,Wadsley-Roth,0,0
41,2.04043,0.23362,0.724375,0.0887586,1.24064,0.045977,0.0344828,0,348,90.0496,4.21434,-0.342098,10.6476,19.378,Nb,O6,Octahedron,348,Nb25O62,Al0.5Nb24.5O62,,,,,,,,,,,,,,,,,,,,,,Wadsley-Roth,0,0
43,2.04043,0.23362,0.724375,0.0887586,1.24064,0.0114943,0.00862069,0,348,90.0496,4.21434,-0.342098,10.6476,19.378,Nb,O6,Octahedron,348,Nb25O62,Al0.5Nb24.5O62,,,,,,,,,,,,,,,,,,,,,,Wadsley-Roth,0,0
45,2.04112,0.170988,-0.247356,0.0715993,1.26378,0.0517241,0.0517241,0,348,95.3918,18.6107,1.52242,10.3672,406.715,Nb,O6,Octahedron,348,Nb25O62,Al0.5Nb24.5O62,,,,,,,,,,,,,,,,,,,,,,Wadsley-Roth,0,0
47,2.04721,0.144388,0.634728,0.0518979,1.26651,0.0172414,0.0229885,0,348,95.4709,19.6308,2.57146,10.4263,449.906,Nb,O6,Octahedron,348,Nb25O62,Al0.5Nb24.5O62,,,,,,,,,,,,,,,,,,,,,,Wadsley-Roth,0,0
49,2.10025,0.159401,0.728443,0.070396,1.22877,0.0344828,0.0344828,0,348,90.2958,6.25288,-0.16492,11.7807,42.7484,Nb,O6,Octahedron,348,Nb25O62,Al0.5Nb24.5O62,,,,,,,,,,,,,,,,,,,,,,Wadsley-Roth,0,0
51,2.13938,0.172987,0.937157,0.0598105,1.2174,0.0114943,0.002873563,0,348,90.1048,5.16497,0.021399,12.6263,29.1141,Nb,O6,Octahedron,348,Nb25O62,Al0.5Nb24.5O62,,,,,,,,,,,,,,,,,,,,,,Wadsley-Roth,0,0
53,2.13938,0.172987,0.937157,0.0598105,1.2174,0.0114943,0.002873563,0,348,90.1048,5.16497,0.021399,12.6263,29.1141,Nb,O6,Octahedron,348,Nb25O62,Al0.5Nb24.5O62,,,,,,,,,,,,,,,,,,,,,,Wadsley-Roth,0,0
55,2.13938,0.172987,0.937157,0.0598105,1.2174,0.0114943,0.002873563,0,348,90.1048,5.16497,0.021399,12.6263,29.1141,Nb,O6,Octahedron,348,Nb25O62,Al0.5Nb24.5O62,,,,,,,,,,,,,,,,,,,,,,Wadsley-Roth,0,0
57,2.16687,0.64436,0.650421,0.277835,5.04,0.0517241,0.0172414,0,348,103.734,32.1879,0.07559109,7.19348,,Nb,O6,Trigonal prism,348,Nb25O62,Al0.5Nb24.5O62,,,,,,,,,,,,,,,,,,,,,,Wadsley-Roth,0,0
59,2.38831,0.847466,-0.845686,0.303549,4.6312,0.0143678,0.00862069,0,348,102.515,27.4361,-0.409994,10.935,,Nb,O6,Trigonal prism,348,Nb25O62,Al0.5Nb24.5O62,,,,,,,,,,,,,,,,,,,,,,Wadsley-Roth,0,0
61,2.38831,0.847466,-0.845686,0.303549,4.6312,0.0287356,0.0172414,0,348,102.515,27.4361,-0.409994,10.935,,Nb,O6,Trigonal prism,348,Nb25O62,Al0.5Nb24.5O62,,,,,,,,,,,,,,,,,,,,,,Wadsley-Roth,0,0
63,1.89851,0.01408436,0.0163129,0.007273188,1.2,0.0833333,0.0208333,0,96,89.9968,4.41535,0.0735584,9.01637,21.2677,Al,O6,Octahedron,96,AlWO4,AlWO4,,,,,,,,,,,,,,,,,,,,,,,0,0
65,1.89851,0.01408436,0.0163129,0.007273188,1.2,0.333333,0.0833333,0,96,89.9968,4.41535,0.0735584,9.01637,21.2677,Al,O6,Octahedron,96,AlWO4,AlWO4,,,,,,,,,,,,,,,,,,,,,,,0,0
67,1.89851,0.01408436,0.0163129,0.007273188,1.2,0.166667,0.0416667,0,96,89.9968,4.41535,0.0735584,9.01637,21.2677,Al,O6,Octahedron,96,AlWO4,AlWO4,,,,,,,,,,,,,,,,,,,,,,,0,0
69,1.9575,0.0485726,-0.202027,0.0212937,1.19733,0.333333,0.0833333,0,96,90.011,2.1662,-1.86348,9.91628,5.11912,W,O6,Octahedron,96,AlWO4,AlWO4,,,,,,,,,,,,,,,,,,,,,,,0,0
71,1.9575,0.0485726,-0.202027,0.0212937,1.19733,0.166667,0.0416667,0,96,90.011,2.1662,-1.86348,9.91628,5.11912,W,O6,Octahedron,96,AlWO4,AlWO4,,,,,,,,,,,,,,,,,,,,,,,0,0
73,2.00763,0.139947,-0.168961,0.0626014,1.21758,0.25,0.0357143,0,112,90.0085,2.47466,-0.0747759,10.4319,6.68075,Nb,O6,Octahedron,112,Nb2O5,B-Nb2O5,,,,,,,,,,,,,,,,,,,,,,,0,0
75,2.00763,0.139947,-0.168961,0.0626014,1.21758,0.5625,0.0803571,0,112,90.0085,2.47466,-0.0747759,10.4319,6.68075,Nb,O6,Octahedron,112,Nb2O5,B-Nb2O5,,,,,,,,,,,,,,,,,,,,,,,0,0
76,2.00763,0.139947,-0.168961,0.0626014,1.21758,0.125,0.0178571,0,112,90.0085,2.47466,-0.0747759,10.4319,6.68075,Nb,O6,Octahedron,112,Nb2O5,B-Nb2O5,,,,,,,,,,,,,,,,,,,,,,,0,0
77,2.36666,0.0452019,0.445245,0.0172211,1.26904,0.111111,0.0277778,0,144,90.024,6.866,0.104876,16.0604,51.4282,Ca,O6,Octahedron,144,CaNb2O6,CaNb2O6,Columbite,321.89,"Ca, Nb",3,22.4809,42.697,33.6381,0.787832,,,0.27,0.09,0.02,,,,0.5,3.5,,10.1021/jp206505y,"The specific capacity is not reported, only x in LixCaNb2O6. Block size is also not mentioned. The paper only states that ""(1 x 1) zigzag channels exist.""",Wadsley-Roth Adjacent,0,0
78,2.36666,0.0452019,0.445245,0.0172211,1.26904,0.222222,0.0555556,0,144,90.024,6.866,0.104876,16.0604,51.4282,Ca,O6,Octahedron,144,CaNb2O6,CaNb2O6,Columbite,321.89,"Ca, Nb",3,22.4809,42.697,33.6381,0.787832,,,0.27,0.09,0.02,,,,0.5,3.5,,10.1021/jp206505y,"The specific capacity is not reported, only x in LixCaNb2O6. Block size is also not mentioned. The paper only states that ""(1 x 1) zigzag channels exist.""",Wadsley-Roth Adjacent,0,0
79,2.36666,0.0452019,0.445245,0.0172211,1.26904,0.277778,0.0694444,0,144,90.024,6.866,0.104876,16.0604,51.4282,Ca,O6,Octahedron,144,CaNb2O6,CaNb2O6,Columbite,321.89,"Ca, Nb",3,22.4809,42.697,33.6381,0.787832,,,0.27,0.09,0.02,,,,0.5,3.5,,10.1021/jp206505y,"The specific capacity is not reported, only x in LixCaNb2O6. Block size is also not mentioned. The paper only states that ""(1 x 1) zigzag channels exist.""",Wadsley-Roth Adjacent,0,0
80,2.36666,0.0452019,0.445245,0.0172211,1.26904,0.277778,0.0694444,0,144,90.024,6.866,0.104876,16.0604,51.4282,Ca,O6,Octahedron,144,CaNb2O6,CaNb2O6,Columbite,321.89,"Ca, Nb",3,22.4809,42.697,33.6381,0.787832,,,0.27,0.09,0.02,,,,0.5,3.5,,10.1021/jp206505y,"The specific capacity is not reported, only x in LixCaNb2O6. Block size is also not mentioned. The paper only states that ""(1 x 1) zigzag channels exist.""",Wadsley-Roth Adjacent,0,0
81,2.01996,0.175732,0.522261,0.0696632,1.22844,0.166667,0.0416667,0,144,90.1755,5.47958,-0.831459,10.4848,32.7891,Nb,O6,Octahedron,144,CaNb2O6,CaNb2O6,Columbite,321.89,"Ca, Nb",3,22.4809,42.697,33.6381,0.787832,,,0.27,0.09,0.02,,,,0.5,3.5,,10.1021/jp206505y,"The specific capacity is not reported, only x in LixCaNb2O6. Block size is also not mentioned. The paper only states that ""(1 x 1) zigzag channels exist.""",Wadsley-Roth Adjacent,0,0
82,2.01996,0.175732,0.522261,0.0696632,1.22844,0.0555556,0.0138889,0,144,90.1755,5.47958,-0.831459,10.4848,32.7891,Nb,O6,Octahedron,144,CaNb2O6,CaNb2O6,Columbite,321.89,"Ca, Nb",3,22.4809,42.697,33.6381,0.787832,,,0.27,0.09,0.02,,,,0.5,3.5,,10.1021/jp206505y,"The specific capacity is not reported, only x in LixCaNb2O6. Block size is also not mentioned. The paper only states that ""(1 x 1) zigzag channels exist.""",Wadsley-Roth Adjacent,0,0
83,2.01996,0.175732,0.522261,0.0696632,1.22844,0.888889,0.222222,0,144,90.1755,5.47958,-0.831459,10.4848,32.7891,Nb,O6,Octahedron,144,CaNb2O6,CaNb2O6,Columbite,321.89,"Ca, Nb",3,22.4809,42.697,33.6381,0.787832,,,0.27,0.09,0.02,,,,0.5,3.5,,10.1021/jp206505y,"The specific capacity is not reported, only x in LixCaNb2O6. Block size is also not mentioned. The paper only states that ""(1 x 1) zigzag channels exist.""",Wadsley-Roth Adjacent,0,0
84,2.01996,0.175732,0.522261,0.0696632,1.22844,0.388889,0.0972222,0,144,90.1755,5.47958,-0.831459,10.4848,32.7891,Nb,O6,Octahedron,144,CaNb2O6,CaNb2O6,Columbite,321.89,"Ca, Nb",3,22.4809,42.697,33.6381,0.787832,,,0.27,0.09,0.02,,,,0.5,3.5,,10.1021/jp206505y,"The specific capacity is not reported, only x in LixCaNb2O6. Block size is also not mentioned. The paper only states that ""(1 x 1) zigzag channels exist.""",Wadsley-Roth Adjacent,0,0
85,2.01996,0.175732,0.522261,0.0696632,1.22844,0.222222,0.0555556,0,144,90.1755,5.47958,-0.831459,10.4848,32.7891,Nb,O6,Octahedron,144,CaNb2O6,CaNb2O6,Columbite,321.89,"Ca, Nb",3,22.4809,42.697,33.6381,0.787832,,,0.27,0.09,0.02,,,,0.5,3.5,,10.1021/jp206505y,"The specific capacity is not reported, only x in LixCaNb2O6. Block size is also not mentioned. The paper only states that ""(1 x 1) zigzag channels exist.""",Wadsley-Roth Adjacent,0,0
86,2.01996,0.175732,0.522261,0.0696632,1.22844,0.0555556,0.0138889,0,144,90.1755,5.47958,-0.831459,10.4848,32.7891,Nb,O6,Octahedron,144,CaNb2O6,CaNb2O6,Columbite,321.89,"Ca, Nb",3,22.4809,42.697,33.6381,0.787832,,,0.27,0.09,0.02,,,,0.5,3.5,,10.1021/jp206505y,"The specific capacity is not reported, only x in LixCaNb2O6. Block size is also not mentioned. The paper only states that ""(1 x 1) zigzag channels exist.""",Wadsley-Roth Adjacent,0,0
87,2.09733,0.0319292,0.166525,0.0129592,1.20868,0.166667,0.0416667,0,144,89.9949,3.66568,1.02293,12.0252,14.6588,Co,O6,Octahedron,144,Nb2CoO6,CoNb2O6,,,,,,,,,,,,,,,,,,,,,,,0,0
88,2.09733,0.0319292,0.166525,0.0129592,1.20868,0.222222,0.0555556,0,144,89.9949,3.66568,1.02293,12.0252,14.6588,Co,O6,Octahedron,144,Nb2CoO6,CoNb2O6,,,,,,,,,,,,,,,,,,,,,,,0,0
89,2.09733,0.0319292,0.166525,0.0129592,1.20868,0.388889,0.0972222,0,144,89.9949,3.66568,1.02293,12.0252,14.6588,Co,O6,Octahedron,144,Nb2CoO6,CoNb2O6,,,,,,,,,,,,,,,,,,,,,,,0,0
90,2.09733,0.0319292,0.166525,0.0129592,1.20868,0.111111,0.0277778,0,144,89.9949,3.66568,1.02293,12.0252,14.6588,Co,O6,Octahedron,144,Nb2CoO6,CoNb2O6,,,,,,,,,,,,,,,,,,,,,,,0,0
91,2.02545,0.178781,1.02758,0.0744165,1.2028,0.444444,0.111111,0,144,89.9826,2.97805,-0.739599,10.9103,9.67537,Nb,O6,Octahedron,144,Nb2CoO6,CoNb2O6,,,,,,,,,,,,,,,,,,,,,,,0,0
92,2.02545,0.178781,1.02758,0.0744165,1.2028,1.22222,0.305556,0,144,89.9826,2.97805,-0.739599,10.9103,9.67537,Nb,O6,Octahedron,144,Nb2CoO6,CoNb2O6,,,,,,,,,,,,,,,,,,,,,,,0,0
93,2.02545,0.178781,1.02758,0.0744165,1.2028,0.111111,0.0277778,0,144,89.9826,2.97805,-0.739599,10.9103,9.67537,Nb,O6,Octahedron,144,Nb2CoO6,CoNb2O6,,,,,,,,,,,,,,,,,,,,,,,0,0
[...]
945,1.79875,0.0406958,-8.14E-15,0.0226245,2.29481,0.0131579,0,0,304,109.646,8.09787,-0.654341,2.89969,78.727,W,O4,Tetrahedron,304,Nb20WO55,W5Nb16O55,WR,3285.67,"Nb, W",21,232,231.12,203.65,0.881144,203.65,0.881144,28.4416,1.35436,0.333333,4,5,inf ,1,3,Symmetric,10.1021/acsaem.2c03573,,Wadsley-Roth,20,9
949,1.93378,0.121314,0.361195,0.0539336,1.19194,0.0526316,0.0131579,0,380,89.9976,1.95251,-0.19367,9.62502,4.15888,Nb,O6,Octahedron,380,Nb25WO69,W8Nb10O69,,,,,,,,,,,,,,,,,,,,,,Wadsley-Roth,0,0
953,1.95213,0.167068,0.688325,0.0624511,1.23001,0.0315789,0.0315789,0,380,90.0436,3.53564,0.0164964,9.44549,13.6392,Nb,O6,Octahedron,380,Nb25WO69,W8Nb10O69,,,,,,,,,,,,,,,,,,,,,,Wadsley-Roth,0,0
957,1.95213,0.167068,0.688325,0.0624511,1.23001,0.0157895,0.0157895,0,380,90.0436,3.53564,0.0164964,9.44549,13.6392,Nb,O6,Octahedron,380,Nb25WO69,W8Nb10O69,,,,,,,,,,,,,,,,,,,,,,Wadsley-Roth,0,0
961,1.96875,0.156152,-0.365741,0.0582329,1.22715,0.0157895,0.0157895,0,380,90.1136,4.22171,-0.260471,9.72268,19.4572,Nb,O6,Octahedron,380,Nb25WO69,W8Nb10O69,,,,,,,,,,,,,,,,,,,,,,Wadsley-Roth,0,0
965,1.97567,0.162499,-0.317301,0.0664975,1.22926,0.007894737,0.007894737,0,380,90.2009,5.08473,-0.141662,9.80018,28.2489,Nb,O6,Octahedron,380,Nb25WO69,W8Nb10O69,,,,,,,,,,,,,,,,,,,,,,Wadsley-Roth,0,0
969,1.97567,0.162499,-0.317301,0.0664975,1.22926,0.007894737,0.007894737,0,380,90.2009,5.08473,-0.141662,9.80018,28.2489,Nb,O6,Octahedron,380,Nb25WO69,W8Nb10O69,,,,,,,,,,,,,,,,,,,,,,Wadsley-Roth,0,0
973,1.97567,0.162499,-0.317301,0.0664975,1.22926,0.0236842,0.0236842,0,380,90.2009,5.08473,-0.141662,9.80018,28.2489,Nb,O6,Octahedron,380,Nb25WO69,W8Nb10O69,,,,,,,,,,,,,,,,,,,,,,Wadsley-Roth,0,0
977,1.98422,0.13767,0.12302,0.0598002,1.19255,0.0315789,0.007894737,0,380,89.9919,1.95262,-0.0303236,10.39,4.1594,Nb,O6,Octahedron,380,Nb25WO69,W8Nb10O69,,,,,,,,,,,,,,,,,,,,,,Wadsley-Roth,0,0
981,2.00464,0.0693985,-0.707107,0.03263899,1.192,0.0210526,0.005263158,0,380,90,5.37582e-14,,10.7215,3.47902e-27,Nb,O6,Octahedron,380,Nb25WO69,W8Nb10O69,,,,,,,,,,,,,,,,,,,,,,Wadsley-Roth,0,0
985,2.02642,0.16058,-0.507589,0.0665495,1.22334,0.0473684,0.0473684,0,380,90.1022,4.34243,0.0188492,10.6519,20.5823,Nb,O6,Octahedron,380,Nb25WO69,W8Nb10O69,,,,,,,,,,,,,,,,,,,,,,Wadsley-Roth,0,0
989,1.771,1.18018e-15,,5.32858e-16,2.26014,0.0105263,0,0,380,109.517,3.78477,0.707107,2.83146,17.192,W,O4,Tetrahedron,380,Nb25WO69,W8Nb10O69,,,,,,,,,,,,,,,,,,,,,,Wadsley-Roth,0,0
993,1.93378,0.121314,0.361195,0.0539336,1.19194,0.0210526,0.005263158,0,380,89.9976,1.95251,-0.19367,9.62502,4.15888,Nb,O6,Octahedron,380,Nb25WO69,W8Nb18O69,WR,4246.99,"W, Nb",26,164.1,276.08,218.05,0.789807,237.02,0.858519,26.0035,1.00014,0.2,4,5,1,1.2,3,Asymmetric,10.1021/acs.chemmater.9b05403,,Wadsley-Roth,20,9
997,1.93378,0.121314,0.361195,0.0539336,1.19194,0.0210526,0.005263158,0,380,89.9976,1.95251,-0.19367,9.62502,4.15888,Nb,O6,Octahedron,380,Nb25WO69,W8Nb18O69,WR,4246.99,"W, Nb",26,164.1,276.08,218.05,0.789807,237.02,0.858519,26.0035,1.00014,0.2,4,5,1,1.2,3,Asymmetric,10.1021/acs.chemmater.9b05403,,Wadsley-Roth,20,9
1001,1.95213,0.167068,0.688325,0.0624511,1.23001,0.0157895,0.0157895,0,380,90.0436,3.53564,0.0164964,9.44549,13.6392,Nb,O6,Octahedron,380,Nb25WO69,W8Nb18O69,WR,4246.99,"W, Nb",26,164.1,276.08,218.05,0.789807,237.02,0.858519,26.0035,1.00014,0.2,4,5,1,1.2,3,Asymmetric,10.1021/acs.chemmater.9b05403,,Wadsley-Roth,20,9
1005,1.96875,0.156152,-0.365741,0.0582329,1.22715,0.007894737,0.007894737,0,380,90.1136,4.22171,-0.260471,9.72268,19.4572,Nb,O6,Octahedron,380,Nb25WO69,W8Nb18O69,WR,4246.99,"W, Nb",26,164.1,276.08,218.05,0.789807,237.02,0.858519,26.0035,1.00014,0.2,4,5,1,1.2,3,Asymmetric,10.1021/acs.chemmater.9b05403,,Wadsley-Roth,20,9
1009,1.96875,0.156152,-0.365741,0.0582329,1.22715,0.007894737,0.007894737,0,380,90.1136,4.22171,-0.260471,9.72268,19.4572,Nb,O6,Octahedron,380,Nb25WO69,W8Nb18O69,WR,4246.99,"W, Nb",26,164.1,276.08,218.05,0.789807,237.02,0.858519,26.0035,1.00014,0.2,4,5,1,1.2,3,Asymmetric,10.1021/acs.chemmater.9b05403,,Wadsley-Roth,20,9
1013,1.97567,0.162499,-0.317301,0.0664975,1.22926,0.007894737,0.007894737,0,380,90.2009,5.08473,-0.141662,9.80018,28.2489,Nb,O6,Octahedron,380,Nb25WO69,W8Nb18O69,WR,4246.99,"W, Nb",26,164.1,276.08,218.05,0.789807,237.02,0.858519,26.0035,1.00014,0.2,4,5,1,1.2,3,Asymmetric,10.1021/acs.chemmater.9b05403,,Wadsley-Roth,20,9
1017,1.97567,0.162499,-0.317301,0.0664975,1.22926,0.0315789,0.0315789,0,380,90.2009,5.08473,-0.141662,9.80018,28.2489,Nb,O6,Octahedron,380,Nb25WO69,W8Nb18O69,WR,4246.99,"W, Nb",26,164.1,276.08,218.05,0.789807,237.02,0.858519,26.0035,1.00014,0.2,4,5,1,1.2,3,Asymmetric,10.1021/acs.chemmater.9b05403,,Wadsley-Roth,20,9
1021,1.98422,0.13767,0.12302,0.0598002,1.19255,0.0105263,0.002631579,0,380,89.9919,1.95262,-0.0303236,10.39,4.1594,Nb,O6,Octahedron,380,Nb25WO69,W8Nb18O69,WR,4246.99,"W, Nb",26,164.1,276.08,218.05,0.789807,237.02,0.858519,26.0035,1.00014,0.2,4,5,1,1.2,3,Asymmetric,10.1021/acs.chemmater.9b05403,,Wadsley-Roth,20,9
1025,1.98422,0.13767,0.12302,0.0598002,1.19255,0.0210526,0.005263158,0,380,89.9919,1.95262,-0.0303236,10.39,4.1594,Nb,O6,Octahedron,380,Nb25WO69,W8Nb18O69,WR,4246.99,"W, Nb",26,164.1,276.08,218.05,0.789807,237.02,0.858519,26.0035,1.00014,0.2,4,5,1,1.2,3,Asymmetric,10.1021/acs.chemmater.9b05403,,Wadsley-Roth,20,9
1029,2.00464,0.0693985,-0.707107,0.03263899,1.192,0.0105263,0.002631579,0,380,90,7.06981e-14,,10.7215,5.45261e-27,Nb,O6,Octahedron,380,Nb25WO69,W8Nb18O69,WR,4246.99,"W, Nb",26,164.1,276.08,218.05,0.789807,237.02,0.858519,26.0035,1.00014,0.2,4,5,1,1.2,3,Asymmetric,10.1021/acs.chemmater.9b05403,,Wadsley-Roth,20,9
1033,2.02642,0.16058,-0.507589,0.0665495,1.22334,0.0394737,0.0394737,0,380,90.1022,4.34243,0.0188492,10.6519,20.5823,Nb,O6,Octahedron,380,Nb25WO69,W8Nb18O69,WR,4246.99,"W, Nb",26,164.1,276.08,218.05,0.789807,237.02,0.858519,26.0035,1.00014,0.2,4,5,1,1.2,3,Asymmetric,10.1021/acs.chemmater.9b05403,,Wadsley-Roth,20,9
1037,1.771,1.64298e-15,,7.83615e-16,2.26014,0.0105263,0,0,380,109.517,3.78477,0.707107,2.83146,17.192,W,O4,Tetrahedron,380,Nb25WO69,W8Nb18O69,WR,4246.99,"W, Nb",26,164.1,276.08,218.05,0.789807,237.02,0.858519,26.0035,1.00014,0.2,4,5,1,1.2,3,Asymmetric,10.1021/acs.chemmater.9b05403,,Wadsley-Roth,20,9
1041,1.93522,0.0222507,0.330064,0.0106355,1.19182,0.02173913,0.005434783,0,184,90.0018,1.7054,-0.0667264,9.64791,3.17281,Nb,O6,Octahedron,184,Nb12WO33,WNb12O33,WR,1826.7,"Nb, W",13,203,202.79,178.76,0.881503,177.9,0.877262,13.8359,1.0643,0.333333,3,4,inf,1,3,Symmetric,10.1021/acsaem.2c03573,,Wadsley-Roth,12,7
1045,1.96819,0.107071,-0.19921,0.0490451,1.26852,0.048913,0.048913,0,184,94.9595,18.0014,1.71858,9.24315,377.701,Nb,O6,Octahedron,184,Nb12WO33,WNb12O33,WR,1826.7,"Nb, W",13,203,202.79,178.76,0.881503,177.9,0.877262,13.8359,1.0643,0.333333,3,4,inf,1,3,Symmetric,10.1021/acsaem.2c03573,,Wadsley-Roth,12,7
1049,2.00296,0.125223,0.0907647,0.0596981,1.27206,0.0163043,0.0163043,0,184,95.0389,18.1403,1.83006,9.70106,383.999,Nb,O6,Octahedron,184,Nb12WO33,WNb12O33,WR,1826.7,"Nb, W",13,203,202.79,178.76,0.881503,177.9,0.877262,13.8359,1.0643,0.333333,3,4,inf,1,3,Symmetric,10.1021/acsaem.2c03573,,Wadsley-Roth,12,7
1053,2.0154,0.0782474,0.611654,0.036065,1.28008,0.0163043,0.0163043,0,184,95.006,18.0601,1.44228,9.79004,380.498,Nb,O6,Octahedron,184,Nb12WO33,WNb12O33,WR,1826.7,"Nb, W",13,203,202.79,178.76,0.881503,177.9,0.877262,13.8359,1.0643,0.333333,3,4,inf,1,3,Symmetric,10.1021/acsaem.2c03573,,Wadsley-Roth,12,7
1057,2.02351,0.123855,0.0280248,0.0605146,1.28714,0.0163043,0.0163043,0,184,94.9587,18.0152,1.35926,9.82743,378.232,Nb,O6,Octahedron,184,Nb12WO33,WNb12O33,WR,1826.7,"Nb, W",13,203,202.79,178.76,0.881503,177.9,0.877262,13.8359,1.0643,0.333333,3,4,inf,1,3,Symmetric,10.1021/acsaem.2c03573,,Wadsley-Roth,12,7
1061,1.70072,0.002283188,-1.09E-13,0.001342483,2.25154,0.0434783,0,0,184,109.478,1.4859,0.704366,2.52198,2.64952,W,O4,Tetrahedron,184,Nb12WO33,WNb12O33,WR,1826.7,"Nb, W",13,203,202.79,178.76,0.881503,177.9,0.877262,13.8359,1.0643,0.333333,3,4,inf,1,3,Symmetric,10.1021/acsaem.2c03573,,Wadsley-Roth,12,7
1065,2.02384,0.151086,0.317255,0.0671121,1.22478,0.611111,0.152778,0,144,90.0119,3.1783,-0.903526,10.5926,11.02,Nb,O6,Octahedron,144,Nb2ZnO6,ZnNb2O6,,,,,,,,,,,,,,,,,,,,,,,,
1069,2.09819,0.0567701,0.628681,0.02518959,1.21122,0.166667,0.0416667,0,144,89.9812,2.25892,0.494691,12.0022,5.56699,Zn,O6,Octahedron,144,Nb2ZnO6,ZnNb2O6,,,,,,,,,,,,,,,,,,,,,,,,
1071,2.09819,0.0567701,0.628681,0.02518959,1.21122,0.0555556,0.0138889,0,144,89.9812,2.25892,0.494691,12.0022,5.56699,Zn,O6,Octahedron,144,Nb2ZnO6,ZnNb2O6,,,,,,,,,,,,,,,,,,,,,,,,